[{"num":1,"trees":2,"strengths":[3,2,2],"player_choices":["fish","tree","fish"],"payoff":5,"max_payoff":5,"is_max":true,"trial_type":"fishing-game","trial_index":0,"time_elapsed":355419,"internal_node_id":"0.0-0.0-0.0"},{"num":2,"trees":2,"strengths":[3,2,3],"player_choices":["fish","fish","fish"],"payoff":0,"max_payoff":6,"is_max":false,"trial_type":"fishing-game","trial_index":1,"time_elapsed":384299,"internal_node_id":"0.0-1.0-0.0"},{"num":2,"trees":2,"strengths":[3,2,3],"player_choices":["fish","tree","fish"],"payoff":6,"max_payoff":6,"is_max":true,"trial_type":"fishing-game","trial_index":2,"time_elapsed":406156,"internal_node_id":"0.0-1.1-0.1"},{"num":3,"trees":1,"strengths":[3,3,3],"player_choices":["tree","fish","tree"],"payoff":3,"max_payoff":6,"is_max":false,"trial_type":"fishing-game","trial_index":3,"time_elapsed":435710,"internal_node_id":"0.0-2.0-0.0"},{"num":3,"trees":1,"strengths":[3,3,3],"player_choices":["tree","fish","fish"],"payoff":6,"max_payoff":6,"is_max":true,"trial_type":"fishing-game","trial_index":4,"time_elapsed":467466,"internal_node_id":"0.0-2.1-0.1"},{"num":4,"trees":3,"strengths":[1,1,3],"player_choices":["fish","fish","tree"],"payoff":2,"max_payoff":2,"is_max":true,"trial_type":"fishing-game","trial_index":5,"time_elapsed":492731,"internal_node_id":"0.0-3.0-0.0"},{"num":5,"trees":3,"strengths":[1,1,2],"player_choices":["tree","fish","tree"],"payoff":1,"max_payoff":1,"is_max":true,"trial_type":"fishing-game","trial_index":6,"time_elapsed":516680,"internal_node_id":"0.0-4.0-0.0"},{"num":6,"trees":1,"strengths":[1,1,1],"player_choices":["tree","tree","fish"],"payoff":1,"max_payoff":2,"is_max":false,"trial_type":"fishing-game","trial_index":7,"time_elapsed":537444,"internal_node_id":"0.0-5.0-0.0"},{"num":6,"trees":1,"strengths":[1,1,1],"player_choices":["tree","fish","fish"],"payoff":2,"max_payoff":2,"is_max":true,"trial_type":"fishing-game","trial_index":8,"time_elapsed":553371,"internal_node_id":"0.0-5.1-0.1"},{"num":7,"trees":1,"strengths":[3,2,2],"player_choices":["fish","tree","fish"],"payoff":5,"max_payoff":5,"is_max":true,"trial_type":"fishing-game","trial_index":9,"time_elapsed":575995,"internal_node_id":"0.0-6.0-0.0"},{"num":8,"trees":1,"strengths":[2,2,2],"player_choices":["tree","fish","fish"],"payoff":4,"max_payoff":4,"is_max":true,"trial_type":"fishing-game","trial_index":10,"time_elapsed":600988,"internal_node_id":"0.0-7.0-0.0"},{"num":9,"trees":1,"strengths":[1,3,2],"player_choices":["tree","fish","fish"],"payoff":5,"max_payoff":5,"is_max":true,"trial_type":"fishing-game","trial_index":11,"time_elapsed":618985,"internal_node_id":"0.0-8.0-0.0"},{"num":10,"trees":2,"strengths":[3,3,1],"player_choices":["tree","fish","fish"],"payoff":4,"max_payoff":4,"is_max":true,"trial_type":"fishing-game","trial_index":12,"time_elapsed":636896,"internal_node_id":"0.0-9.0-0.0"},{"num":11,"trees":3,"strengths":[3,3,3],"player_choices":["tree","fish","fish"],"payoff":6,"max_payoff":6,"is_max":true,"trial_type":"fishing-game","trial_index":13,"time_elapsed":655955,"internal_node_id":"0.0-10.0-0.0"},{"num":12,"trees":1,"strengths":[3,1,3],"player_choices":["fish","tree","fish"],"payoff":6,"max_payoff":6,"is_max":true,"trial_type":"fishing-game","trial_index":14,"time_elapsed":675048,"internal_node_id":"0.0-11.0-0.0"},{"num":13,"trees":3,"strengths":[1,2,3],"player_choices":["fish","fish","tree"],"payoff":3,"max_payoff":3,"is_max":true,"trial_type":"fishing-game","trial_index":15,"time_elapsed":695774,"internal_node_id":"0.0-12.0-0.0"},{"num":14,"trees":1,"strengths":[1,2,2],"player_choices":["tree","fish","fish"],"payoff":4,"max_payoff":4,"is_max":true,"trial_type":"fishing-game","trial_index":16,"time_elapsed":709567,"internal_node_id":"0.0-13.0-0.0"},{"num":15,"trees":3,"strengths":[2,2,2],"player_choices":["tree","tree","tree"],"payoff":0,"max_payoff":2,"is_max":false,"trial_type":"fishing-game","trial_index":17,"time_elapsed":731776,"internal_node_id":"0.0-14.0-0.0"},{"num":15,"trees":3,"strengths":[2,2,2],"player_choices":["tree","tree","tree"],"payoff":0,"max_payoff":2,"is_max":false,"trial_type":"fishing-game","trial_index":18,"time_elapsed":753627,"internal_node_id":"0.0-14.1-0.1"},{"num":15,"trees":3,"strengths":[2,2,2],"player_choices":["tree","fish","fish"],"payoff":0,"max_payoff":2,"is_max":false,"trial_type":"fishing-game","trial_index":19,"time_elapsed":779846,"internal_node_id":"0.0-14.2-0.2"},{"num":15,"trees":3,"strengths":[2,2,2],"player_choices":["tree","fish","fish"],"payoff":0,"max_payoff":2,"is_max":false,"trial_type":"fishing-game","trial_index":20,"time_elapsed":802507,"internal_node_id":"0.0-14.3-0.3"},{"num":15,"trees":3,"strengths":[2,2,2],"player_choices":["tree","tree","tree"],"payoff":0,"max_payoff":2,"is_max":false,"trial_type":"fishing-game","trial_index":21,"time_elapsed":830084,"internal_node_id":"0.0-14.4-0.4"},{"num":15,"trees":3,"strengths":[2,2,2],"player_choices":["fish","tree","tree"],"payoff":2,"max_payoff":2,"is_max":true,"trial_type":"fishing-game","trial_index":22,"time_elapsed":849957,"internal_node_id":"0.0-14.5-0.5"},{"num":16,"trees":1,"strengths":[1,2,3],"player_choices":["tree","fish","fish"],"payoff":5,"max_payoff":5,"is_max":true,"trial_type":"fishing-game","trial_index":23,"time_elapsed":870291,"internal_node_id":"0.0-15.0-0.0"},{"num":17,"trees":2,"strengths":[1,1,1],"player_choices":["tree","fish","tree"],"payoff":1,"max_payoff":1,"is_max":true,"trial_type":"fishing-game","trial_index":24,"time_elapsed":885996,"internal_node_id":"0.0-16.0-0.0"},{"num":18,"trees":3,"strengths":[1,2,2],"player_choices":["tree","fish","fish"],"payoff":0,"max_payoff":2,"is_max":false,"trial_type":"fishing-game","trial_index":25,"time_elapsed":905745,"internal_node_id":"0.0-17.0-0.0"},{"num":18,"trees":3,"strengths":[1,2,2],"player_choices":["tree","tree","fish"],"payoff":2,"max_payoff":2,"is_max":true,"trial_type":"fishing-game","trial_index":26,"time_elapsed":923776,"internal_node_id":"0.0-17.1-0.1"},{"num":19,"trees":2,"strengths":[2,3,3],"player_choices":["tree","fish","fish"],"payoff":6,"max_payoff":6,"is_max":true,"trial_type":"fishing-game","trial_index":27,"time_elapsed":941988,"internal_node_id":"0.0-18.0-0.0"},{"num":20,"trees":2,"strengths":[3,3,3],"player_choices":["tree","fish","fish"],"payoff":6,"max_payoff":6,"is_max":true,"trial_type":"fishing-game","trial_index":28,"time_elapsed":958763,"internal_node_id":"0.0-19.0-0.0"},{"num":21,"trees":3,"strengths":[3,3,2],"player_choices":["tree","fish","fish"],"payoff":5,"max_payoff":5,"is_max":true,"trial_type":"fishing-game","trial_index":29,"time_elapsed":977329,"internal_node_id":"0.0-20.0-0.0"},{"num":22,"trees":3,"strengths":[3,3,1],"player_choices":["tree","fish","fish"],"payoff":4,"max_payoff":4,"is_max":true,"trial_type":"fishing-game","trial_index":30,"time_elapsed":994653,"internal_node_id":"0.0-21.0-0.0"},{"num":23,"trees":2,"strengths":[1,2,3],"player_choices":["fish","tree","fish"],"payoff":4,"max_payoff":4,"is_max":true,"trial_type":"fishing-game","trial_index":31,"time_elapsed":1013570,"internal_node_id":"0.0-22.0-0.0"},{"num":24,"trees":2,"strengths":[2,2,2],"player_choices":["tree","fish","fish"],"payoff":4,"max_payoff":4,"is_max":true,"trial_type":"fishing-game","trial_index":32,"time_elapsed":1028085,"internal_node_id":"0.0-23.0-0.0"}]