[{"num":1,"trees":2,"strengths":[1,1,1],"player_choices":["fish","fish","tree"],"payoff":0,"max_payoff":1,"is_max":false,"trial_type":"fishing-game","trial_index":0,"time_elapsed":379718,"internal_node_id":"0.0-0.0-0.0"},{"num":1,"trees":2,"strengths":[1,1,1],"player_choices":["fish","tree","tree"],"payoff":1,"max_payoff":1,"is_max":true,"trial_type":"fishing-game","trial_index":1,"time_elapsed":406060,"internal_node_id":"0.0-0.1-0.1"},{"num":2,"trees":3,"strengths":[1,2,2],"player_choices":["tree","fish","tree"],"payoff":2,"max_payoff":2,"is_max":true,"trial_type":"fishing-game","trial_index":2,"time_elapsed":435841,"internal_node_id":"0.0-1.0-0.0"},{"num":3,"trees":2,"strengths":[2,3,3],"player_choices":["tree","fish","fish"],"payoff":6,"max_payoff":6,"is_max":true,"trial_type":"fishing-game","trial_index":3,"time_elapsed":456469,"internal_node_id":"0.0-2.0-0.0"},{"num":4,"trees":1,"strengths":[1,1,1],"player_choices":["fish","fish","fish"],"payoff":0,"max_payoff":2,"is_max":false,"trial_type":"fishing-game","trial_index":4,"time_elapsed":484742,"internal_node_id":"0.0-3.0-0.0"},{"num":4,"trees":1,"strengths":[1,1,1],"player_choices":["fish","fish","tree"],"payoff":2,"max_payoff":2,"is_max":true,"trial_type":"fishing-game","trial_index":4,"time_elapsed":484743,"internal_node_id":"0.0-3.0-0.0"},{"num":6,"trees":2,"strengths":[1,1,3],"player_choices":["tree","tree","fish"],"payoff":3,"max_payoff":3,"is_max":true,"trial_type":"fishing-game","trial_index":6,"time_elapsed":505371,"internal_node_id":"0.0-5.0-0.0"},{"num":7,"trees":1,"strengths":[2,2,2],"player_choices":["fish","fish","tree"],"payoff":4,"max_payoff":4,"is_max":true,"trial_type":"fishing-game","trial_index":7,"time_elapsed":530849,"internal_node_id":"0.0-6.0-0.0"},{"num":8,"trees":3,"strengths":[2,3,1],"player_choices":["tree","fish","tree"],"payoff":3,"max_payoff":3,"is_max":true,"trial_type":"fishing-game","trial_index":8,"time_elapsed":570470,"internal_node_id":"0.0-7.0-0.0"},{"num":9,"trees":1,"strengths":[3,3,1],"player_choices":["fish","fish","tree"],"payoff":6,"max_payoff":6,"is_max":true,"trial_type":"fishing-game","trial_index":9,"time_elapsed":592005,"internal_node_id":"0.0-8.0-0.0"},{"num":10,"trees":2,"strengths":[2,3,2],"player_choices":["fish","fish","tree"],"payoff":5,"max_payoff":5,"is_max":true,"trial_type":"fishing-game","trial_index":10,"time_elapsed":613137,"internal_node_id":"0.0-9.0-0.0"},{"num":11,"trees":2,"strengths":[2,3,1],"player_choices":["tree","fish","fish"],"payoff":4,"max_payoff":4,"is_max":true,"trial_type":"fishing-game","trial_index":11,"time_elapsed":634767,"internal_node_id":"0.0-10.0-0.0"},{"num":12,"trees":3,"strengths":[3,3,3],"player_choices":["fish","fish","tree"],"payoff":6,"max_payoff":6,"is_max":true,"trial_type":"fishing-game","trial_index":12,"time_elapsed":659783,"internal_node_id":"0.0-11.0-0.0"},{"num":13,"trees":3,"strengths":[2,2,2],"player_choices":["fish","tree","tree"],"payoff":2,"max_payoff":2,"is_max":true,"trial_type":"fishing-game","trial_index":13,"time_elapsed":683560,"internal_node_id":"0.0-12.0-0.0"},{"num":14,"trees":2,"strengths":[2,2,1],"player_choices":["fish","tree","fish"],"payoff":3,"max_payoff":3,"is_max":true,"trial_type":"fishing-game","trial_index":14,"time_elapsed":708002,"internal_node_id":"0.0-13.0-0.0"},{"num":15,"trees":3,"strengths":[3,1,1],"player_choices":["tree","fish","fish"],"payoff":2,"max_payoff":2,"is_max":true,"trial_type":"fishing-game","trial_index":15,"time_elapsed":730861,"internal_node_id":"0.0-14.0-0.0"},{"num":16,"trees":2,"strengths":[1,3,3],"player_choices":["fish","fish","tree"],"payoff":4,"max_payoff":4,"is_max":true,"trial_type":"fishing-game","trial_index":16,"time_elapsed":752765,"internal_node_id":"0.0-15.0-0.0"},{"num":17,"trees":2,"strengths":[3,3,3],"player_choices":["fish","fish","tree"],"payoff":6,"max_payoff":6,"is_max":true,"trial_type":"fishing-game","trial_index":17,"time_elapsed":771631,"internal_node_id":"0.0-16.0-0.0"},{"num":18,"trees":1,"strengths":[3,2,1],"player_choices":["fish","fish","tree"],"payoff":5,"max_payoff":5,"is_max":true,"trial_type":"fishing-game","trial_index":18,"time_elapsed":788815,"internal_node_id":"0.0-17.0-0.0"},{"num":19,"trees":3,"strengths":[3,2,2],"player_choices":["tree","fish","fish"],"payoff":4,"max_payoff":4,"is_max":true,"trial_type":"fishing-game","trial_index":19,"time_elapsed":807663,"internal_node_id":"0.0-18.0-0.0"},{"num":20,"trees":1,"strengths":[3,1,1],"player_choices":["fish","fish","tree"],"payoff":4,"max_payoff":4,"is_max":true,"trial_type":"fishing-game","trial_index":20,"time_elapsed":825538,"internal_node_id":"0.0-19.0-0.0"},{"num":21,"trees":2,"strengths":[2,2,2],"player_choices":["fish","fish","tree"],"payoff":4,"max_payoff":4,"is_max":true,"trial_type":"fishing-game","trial_index":21,"time_elapsed":841942,"internal_node_id":"0.0-20.0-0.0"},{"num":22,"trees":3,"strengths":[3,1,3],"player_choices":["fish","fish","tree"],"payoff":4,"max_payoff":4,"is_max":true,"trial_type":"fishing-game","trial_index":22,"time_elapsed":862705,"internal_node_id":"0.0-21.0-0.0"},{"num":23,"trees":1,"strengths":[3,3,3],"player_choices":["fish","fish","tree"],"payoff":6,"max_payoff":6,"is_max":true,"trial_type":"fishing-game","trial_index":23,"time_elapsed":878456,"internal_node_id":"0.0-22.0-0.0"},{"num":24,"trees":1,"strengths":[1,3,3],"player_choices":["tree","fish","fish"],"payoff":6,"max_payoff":6,"is_max":true,"trial_type":"fishing-game","trial_index":24,"time_elapsed":895065,"internal_node_id":"0.0-23.0-0.0"}]