[{"num":1,"trees":2,"strengths":[3,3,1],"player_choices":["tree","fish","fish"],"payoff":4,"max_payoff":4,"is_max":true,"trial_type":"fishing-game","trial_index":0,"time_elapsed":411482,"internal_node_id":"0.0-0.0-0.0"},{"num":2,"trees":1,"strengths":[1,1,1],"player_choices":["tree","fish","fish"],"payoff":2,"max_payoff":2,"is_max":true,"trial_type":"fishing-game","trial_index":1,"time_elapsed":446372,"internal_node_id":"0.0-1.0-0.0"},{"num":3,"trees":3,"strengths":[1,1,3],"player_choices":["fish","fish","tree"],"payoff":2,"max_payoff":2,"is_max":true,"trial_type":"fishing-game","trial_index":2,"time_elapsed":476931,"internal_node_id":"0.0-2.0-0.0"},{"num":4,"trees":3,"strengths":[1,1,2],"player_choices":["tree","fish","tree"],"payoff":1,"max_payoff":1,"is_max":true,"trial_type":"fishing-game","trial_index":3,"time_elapsed":504894,"internal_node_id":"0.0-3.0-0.0"},{"num":5,"trees":1,"strengths":[3,3,2],"player_choices":["tree","fish","tree"],"payoff":3,"max_payoff":6,"is_max":false,"trial_type":"fishing-game","trial_index":4,"time_elapsed":538395,"internal_node_id":"0.0-4.0-0.0"},{"num":5,"trees":1,"strengths":[3,3,2],"player_choices":["tree","fish","tree"],"payoff":3,"max_payoff":6,"is_max":false,"trial_type":"fishing-game","trial_index":5,"time_elapsed":576396,"internal_node_id":"0.0-4.1-0.1"},{"num":5,"trees":1,"strengths":[3,3,2],"player_choices":["tree","fish","tree"],"payoff":3,"max_payoff":6,"is_max":false,"trial_type":"fishing-game","trial_index":6,"time_elapsed":602590,"internal_node_id":"0.0-4.2-0.2"},{"num":5,"trees":1,"strengths":[3,3,2],"player_choices":["tree","fish","fish"],"payoff":5,"max_payoff":6,"is_max":false,"trial_type":"fishing-game","trial_index":7,"time_elapsed":658989,"internal_node_id":"0.0-4.3-0.3"},{"num":5,"trees":1,"strengths":[3,3,2],"player_choices":["fish","fish","tree"],"payoff":6,"max_payoff":6,"is_max":true,"trial_type":"fishing-game","trial_index":8,"time_elapsed":690425,"internal_node_id":"0.0-4.4-0.4"},{"num":6,"trees":1,"strengths":[3,3,3],"player_choices":["fish","fish","fish"],"payoff":0,"max_payoff":6,"is_max":false,"trial_type":"fishing-game","trial_index":9,"time_elapsed":720966,"internal_node_id":"0.0-5.0-0.0"},{"num":6,"trees":1,"strengths":[3,3,3],"player_choices":["fish","fish","tree"],"payoff":6,"max_payoff":6,"is_max":true,"trial_type":"fishing-game","trial_index":10,"time_elapsed":746973,"internal_node_id":"0.0-5.1-0.1"},{"num":7,"trees":2,"strengths":[2,1,2],"player_choices":["tree","fish","tree"],"payoff":1,"max_payoff":3,"is_max":false,"trial_type":"fishing-game","trial_index":11,"time_elapsed":780627,"internal_node_id":"0.0-6.0-0.0"},{"num":7,"trees":2,"strengths":[2,1,2],"player_choices":["fish","fish","tree"],"payoff":3,"max_payoff":3,"is_max":true,"trial_type":"fishing-game","trial_index":12,"time_elapsed":803796,"internal_node_id":"0.0-6.1-0.1"},{"num":8,"trees":2,"strengths":[1,1,3],"player_choices":["fish","tree","tree"],"payoff":1,"max_payoff":3,"is_max":false,"trial_type":"fishing-game","trial_index":13,"time_elapsed":839209,"internal_node_id":"0.0-7.0-0.0"},{"num":8,"trees":2,"strengths":[1,1,3],"player_choices":["fish","tree","tree"],"payoff":1,"max_payoff":3,"is_max":false,"trial_type":"fishing-game","trial_index":14,"time_elapsed":864619,"internal_node_id":"0.0-7.1-0.1"},{"num":8,"trees":2,"strengths":[1,1,3],"player_choices":["fish","tree","fish"],"payoff":0,"max_payoff":3,"is_max":false,"trial_type":"fishing-game","trial_index":15,"time_elapsed":898473,"internal_node_id":"0.0-7.2-0.2"},{"num":8,"trees":2,"strengths":[1,1,3],"player_choices":["fish","tree","fish"],"payoff":0,"max_payoff":3,"is_max":false,"trial_type":"fishing-game","trial_index":16,"time_elapsed":990107,"internal_node_id":"0.0-7.3-0.3"},{"num":8,"trees":2,"strengths":[1,1,3],"player_choices":["tree","tree","fish"],"payoff":3,"max_payoff":3,"is_max":true,"trial_type":"fishing-game","trial_index":17,"time_elapsed":1017310,"internal_node_id":"0.0-7.4-0.4"},{"num":9,"trees":1,"strengths":[2,2,2],"player_choices":["tree","fish","fish"],"payoff":4,"max_payoff":4,"is_max":true,"trial_type":"fishing-game","trial_index":18,"time_elapsed":1049072,"internal_node_id":"0.0-8.0-0.0"},{"num":10,"trees":2,"strengths":[3,3,3],"player_choices":["tree","fish","tree"],"payoff":3,"max_payoff":6,"is_max":false,"trial_type":"fishing-game","trial_index":19,"time_elapsed":1125166,"internal_node_id":"0.0-9.0-0.0"},{"num":10,"trees":2,"strengths":[3,3,3],"player_choices":["tree","fish","fish"],"payoff":6,"max_payoff":6,"is_max":true,"trial_type":"fishing-game","trial_index":20,"time_elapsed":1152660,"internal_node_id":"0.0-9.1-0.1"},{"num":11,"trees":3,"strengths":[3,3,1],"player_choices":["tree","fish","fish"],"payoff":4,"max_payoff":4,"is_max":true,"trial_type":"fishing-game","trial_index":21,"time_elapsed":1176111,"internal_node_id":"0.0-10.0-0.0"},{"num":12,"trees":2,"strengths":[1,3,2],"player_choices":["fish","fish","tree"],"payoff":4,"max_payoff":4,"is_max":true,"trial_type":"fishing-game","trial_index":22,"time_elapsed":1216806,"internal_node_id":"0.0-11.0-0.0"},{"num":13,"trees":1,"strengths":[2,1,3],"player_choices":["fish","tree","fish"],"payoff":5,"max_payoff":5,"is_max":true,"trial_type":"fishing-game","trial_index":23,"time_elapsed":1242174,"internal_node_id":"0.0-12.0-0.0"},{"num":14,"trees":2,"strengths":[2,1,1],"player_choices":["tree","fish","fish"],"payoff":2,"max_payoff":2,"is_max":true,"trial_type":"fishing-game","trial_index":24,"time_elapsed":1278488,"internal_node_id":"0.0-13.0-0.0"},{"num":15,"trees":2,"strengths":[2,2,2],"player_choices":["tree","fish","fish"],"payoff":4,"max_payoff":4,"is_max":true,"trial_type":"fishing-game","trial_index":25,"time_elapsed":1301402,"internal_node_id":"0.0-14.0-0.0"},{"num":16,"trees":2,"strengths":[1,3,1],"player_choices":["tree","fish","tree"],"payoff":3,"max_payoff":3,"is_max":true,"trial_type":"fishing-game","trial_index":26,"time_elapsed":1327347,"internal_node_id":"0.0-15.0-0.0"},{"num":17,"trees":2,"strengths":[1,1,1],"player_choices":["tree","fish","tree"],"payoff":1,"max_payoff":1,"is_max":true,"trial_type":"fishing-game","trial_index":27,"time_elapsed":1352672,"internal_node_id":"0.0-16.0-0.0"},{"num":18,"trees":3,"strengths":[2,3,1],"player_choices":["fish","tree","fish"],"payoff":3,"max_payoff":3,"is_max":true,"trial_type":"fishing-game","trial_index":28,"time_elapsed":1385652,"internal_node_id":"0.0-17.0-0.0"},{"num":19,"trees":3,"strengths":[3,1,2],"player_choices":["tree","fish","fish"],"payoff":3,"max_payoff":3,"is_max":true,"trial_type":"fishing-game","trial_index":29,"time_elapsed":1405113,"internal_node_id":"0.0-18.0-0.0"},{"num":20,"trees":3,"strengths":[2,2,2],"player_choices":["tree","fish","tree"],"payoff":2,"max_payoff":2,"is_max":true,"trial_type":"fishing-game","trial_index":30,"time_elapsed":1426914,"internal_node_id":"0.0-19.0-0.0"},{"num":21,"trees":3,"strengths":[2,2,3],"player_choices":["tree","fish","tree"],"payoff":2,"max_payoff":4,"is_max":false,"trial_type":"fishing-game","trial_index":31,"time_elapsed":1460895,"internal_node_id":"0.0-20.0-0.0"},{"num":21,"trees":3,"strengths":[2,2,3],"player_choices":["fish","fish","tree"],"payoff":4,"max_payoff":4,"is_max":true,"trial_type":"fishing-game","trial_index":32,"time_elapsed":1481121,"internal_node_id":"0.0-20.1-0.1"},{"num":22,"trees":2,"strengths":[1,3,3],"player_choices":["fish","fish","tree"],"payoff":4,"max_payoff":4,"is_max":true,"trial_type":"fishing-game","trial_index":33,"time_elapsed":1510455,"internal_node_id":"0.0-21.0-0.0"},{"num":23,"trees":3,"strengths":[3,3,3],"player_choices":["tree","fish","fish"],"payoff":6,"max_payoff":6,"is_max":true,"trial_type":"fishing-game","trial_index":34,"time_elapsed":1533319,"internal_node_id":"0.0-22.0-0.0"},{"num":24,"trees":1,"strengths":[3,1,2],"player_choices":["fish","tree","fish"],"payoff":5,"max_payoff":5,"is_max":true,"trial_type":"fishing-game","trial_index":35,"time_elapsed":1555350,"internal_node_id":"0.0-23.0-0.0"}]