[{"num":1,"trees":1,"strengths":[3,1,3],"player_choices":["fish","tree","tree"],"payoff":3,"max_payoff":6,"is_max":false,"trial_type":"fishing-game","trial_index":0,"time_elapsed":238872,"internal_node_id":"0.0-0.0-0.0"},{"num":1,"trees":1,"strengths":[3,1,3],"player_choices":["fish","tree","fish"],"payoff":6,"max_payoff":6,"is_max":true,"trial_type":"fishing-game","trial_index":1,"time_elapsed":261898,"internal_node_id":"0.0-0.1-0.1"},{"num":2,"trees":1,"strengths":[3,3,3],"player_choices":["fish","tree","tree"],"payoff":3,"max_payoff":6,"is_max":false,"trial_type":"fishing-game","trial_index":2,"time_elapsed":300560,"internal_node_id":"0.0-1.0-0.0"},{"num":2,"trees":1,"strengths":[3,3,3],"player_choices":["fish","tree","tree"],"payoff":3,"max_payoff":6,"is_max":false,"trial_type":"fishing-game","trial_index":3,"time_elapsed":319085,"internal_node_id":"0.0-1.1-0.1"},{"num":2,"trees":1,"strengths":[3,3,3],"player_choices":["fish","tree","tree"],"payoff":3,"max_payoff":6,"is_max":false,"trial_type":"fishing-game","trial_index":4,"time_elapsed":342243,"internal_node_id":"0.0-1.2-0.2"},{"num":2,"trees":1,"strengths":[3,3,3],"player_choices":["fish","fish","fish"],"payoff":0,"max_payoff":6,"is_max":false,"trial_type":"fishing-game","trial_index":5,"time_elapsed":366374,"internal_node_id":"0.0-1.3-0.3"},{"num":2,"trees":1,"strengths":[3,3,3],"player_choices":["fish","fish","tree"],"payoff":6,"max_payoff":6,"is_max":true,"trial_type":"fishing-game","trial_index":6,"time_elapsed":391905,"internal_node_id":"0.0-1.4-0.4"},{"num":3,"trees":3,"strengths":[2,2,1],"player_choices":["fish","tree","fish"],"payoff":0,"max_payoff":2,"is_max":false,"trial_type":"fishing-game","trial_index":7,"time_elapsed":416682,"internal_node_id":"0.0-2.0-0.0"},{"num":3,"trees":3,"strengths":[2,2,1],"player_choices":["fish","tree","tree"],"payoff":2,"max_payoff":2,"is_max":true,"trial_type":"fishing-game","trial_index":8,"time_elapsed":433138,"internal_node_id":"0.0-2.1-0.1"},{"num":4,"trees":1,"strengths":[3,3,2],"player_choices":["fish","fish","tree"],"payoff":6,"max_payoff":6,"is_max":true,"trial_type":"fishing-game","trial_index":9,"time_elapsed":454185,"internal_node_id":"0.0-3.0-0.0"},{"num":5,"trees":2,"strengths":[1,2,2],"player_choices":["fish","fish","fish"],"payoff":0,"max_payoff":3,"is_max":false,"trial_type":"fishing-game","trial_index":10,"time_elapsed":487466,"internal_node_id":"0.0-4.0-0.0"},{"num":5,"trees":2,"strengths":[1,2,2],"player_choices":["fish","fish","fish"],"payoff":0,"max_payoff":3,"is_max":false,"trial_type":"fishing-game","trial_index":11,"time_elapsed":508701,"internal_node_id":"0.0-4.1-0.1"},{"num":5,"trees":2,"strengths":[1,2,2],"player_choices":["fish","tree","fish"],"payoff":3,"max_payoff":3,"is_max":true,"trial_type":"fishing-game","trial_index":12,"time_elapsed":534292,"internal_node_id":"0.0-4.2-0.2"},{"num":6,"trees":3,"strengths":[2,2,2],"player_choices":["tree","tree","tree"],"payoff":0,"max_payoff":2,"is_max":false,"trial_type":"fishing-game","trial_index":13,"time_elapsed":579473,"internal_node_id":"0.0-5.0-0.0"},{"num":6,"trees":3,"strengths":[2,2,2],"player_choices":["fish","tree","fish"],"payoff":0,"max_payoff":2,"is_max":false,"trial_type":"fishing-game","trial_index":14,"time_elapsed":604127,"internal_node_id":"0.0-5.1-0.1"},{"num":6,"trees":3,"strengths":[2,2,2],"player_choices":["fish","tree","tree"],"payoff":2,"max_payoff":2,"is_max":true,"trial_type":"fishing-game","trial_index":15,"time_elapsed":617905,"internal_node_id":"0.0-5.2-0.2"},{"num":7,"trees":2,"strengths":[3,3,2],"player_choices":["fish","fish","tree"],"payoff":6,"max_payoff":6,"is_max":true,"trial_type":"fishing-game","trial_index":16,"time_elapsed":636740,"internal_node_id":"0.0-6.0-0.0"},{"num":8,"trees":2,"strengths":[3,3,3],"player_choices":["fish","fish","tree"],"payoff":6,"max_payoff":6,"is_max":true,"trial_type":"fishing-game","trial_index":17,"time_elapsed":659030,"internal_node_id":"0.0-7.0-0.0"},{"num":9,"trees":2,"strengths":[2,2,3],"player_choices":["fish","tree","fish"],"payoff":5,"max_payoff":5,"is_max":true,"trial_type":"fishing-game","trial_index":18,"time_elapsed":680448,"internal_node_id":"0.0-8.0-0.0"},{"num":10,"trees":3,"strengths":[3,3,3],"player_choices":["fish","fish","fish"],"payoff":0,"max_payoff":6,"is_max":false,"trial_type":"fishing-game","trial_index":19,"time_elapsed":699806,"internal_node_id":"0.0-9.0-0.0"},{"num":10,"trees":3,"strengths":[3,3,3],"player_choices":["fish","fish","tree"],"payoff":6,"max_payoff":6,"is_max":true,"trial_type":"fishing-game","trial_index":20,"time_elapsed":712517,"internal_node_id":"0.0-9.1-0.1"},{"num":11,"trees":1,"strengths":[1,2,3],"player_choices":["tree","fish","fish"],"payoff":5,"max_payoff":5,"is_max":true,"trial_type":"fishing-game","trial_index":21,"time_elapsed":730931,"internal_node_id":"0.0-10.0-0.0"},{"num":12,"trees":1,"strengths":[2,3,2],"player_choices":["tree","fish","tree"],"payoff":3,"max_payoff":5,"is_max":false,"trial_type":"fishing-game","trial_index":22,"time_elapsed":758146,"internal_node_id":"0.0-11.0-0.0"},{"num":12,"trees":1,"strengths":[2,3,2],"player_choices":["tree","fish","tree"],"payoff":3,"max_payoff":5,"is_max":false,"trial_type":"fishing-game","trial_index":23,"time_elapsed":768595,"internal_node_id":"0.0-11.1-0.1"},{"num":12,"trees":1,"strengths":[2,3,2],"player_choices":["fish","fish","tree"],"payoff":5,"max_payoff":5,"is_max":true,"trial_type":"fishing-game","trial_index":24,"time_elapsed":781382,"internal_node_id":"0.0-11.2-0.2"},{"num":13,"trees":2,"strengths":[2,2,2],"player_choices":["fish","fish","tree"],"payoff":4,"max_payoff":4,"is_max":true,"trial_type":"fishing-game","trial_index":25,"time_elapsed":797665,"internal_node_id":"0.0-12.0-0.0"},{"num":14,"trees":1,"strengths":[3,2,1],"player_choices":["fish","fish","tree"],"payoff":5,"max_payoff":5,"is_max":true,"trial_type":"fishing-game","trial_index":26,"time_elapsed":813993,"internal_node_id":"0.0-13.0-0.0"},{"num":15,"trees":2,"strengths":[2,1,2],"player_choices":["fish","tree","tree"],"payoff":2,"max_payoff":3,"is_max":false,"trial_type":"fishing-game","trial_index":27,"time_elapsed":835501,"internal_node_id":"0.0-14.0-0.0"},{"num":15,"trees":2,"strengths":[2,1,2],"player_choices":["fish","fish","tree"],"payoff":3,"max_payoff":3,"is_max":true,"trial_type":"fishing-game","trial_index":28,"time_elapsed":847896,"internal_node_id":"0.0-14.1-0.1"},{"num":16,"trees":2,"strengths":[2,2,1],"player_choices":["tree","tree","fish"],"payoff":1,"max_payoff":3,"is_max":false,"trial_type":"fishing-game","trial_index":29,"time_elapsed":865593,"internal_node_id":"0.0-15.0-0.0"},{"num":16,"trees":2,"strengths":[2,2,1],"player_choices":["fish","tree","fish"],"payoff":3,"max_payoff":3,"is_max":true,"trial_type":"fishing-game","trial_index":30,"time_elapsed":873696,"internal_node_id":"0.0-15.1-0.1"},{"num":17,"trees":2,"strengths":[1,1,1],"player_choices":["tree","tree","tree"],"payoff":0,"max_payoff":1,"is_max":false,"trial_type":"fishing-game","trial_index":31,"time_elapsed":891911,"internal_node_id":"0.0-16.0-0.0"},{"num":17,"trees":2,"strengths":[1,1,1],"player_choices":["fish","tree","tree"],"payoff":1,"max_payoff":1,"is_max":true,"trial_type":"fishing-game","trial_index":32,"time_elapsed":900626,"internal_node_id":"0.0-16.1-0.1"},{"num":18,"trees":2,"strengths":[1,3,1],"player_choices":["tree","fish","tree"],"payoff":3,"max_payoff":3,"is_max":true,"trial_type":"fishing-game","trial_index":33,"time_elapsed":918949,"internal_node_id":"0.0-17.0-0.0"},{"num":19,"trees":1,"strengths":[1,1,1],"player_choices":["fish","fish","tree"],"payoff":2,"max_payoff":2,"is_max":true,"trial_type":"fishing-game","trial_index":34,"time_elapsed":936947,"internal_node_id":"0.0-18.0-0.0"},{"num":20,"trees":1,"strengths":[2,1,3],"player_choices":["fish","tree","fish"],"payoff":5,"max_payoff":5,"is_max":true,"trial_type":"fishing-game","trial_index":35,"time_elapsed":952546,"internal_node_id":"0.0-19.0-0.0"},{"num":21,"trees":2,"strengths":[3,1,3],"player_choices":["fish","fish","tree"],"payoff":4,"max_payoff":4,"is_max":true,"trial_type":"fishing-game","trial_index":36,"time_elapsed":968788,"internal_node_id":"0.0-20.0-0.0"},{"num":22,"trees":1,"strengths":[2,2,1],"player_choices":["fish","fish","tree"],"payoff":4,"max_payoff":4,"is_max":true,"trial_type":"fishing-game","trial_index":37,"time_elapsed":984051,"internal_node_id":"0.0-21.0-0.0"},{"num":23,"trees":1,"strengths":[2,2,2],"player_choices":["fish","fish","tree"],"payoff":4,"max_payoff":4,"is_max":true,"trial_type":"fishing-game","trial_index":38,"time_elapsed":1001957,"internal_node_id":"0.0-22.0-0.0"},{"num":24,"trees":2,"strengths":[1,3,3],"player_choices":["fish","fish","tree"],"payoff":4,"max_payoff":4,"is_max":true,"trial_type":"fishing-game","trial_index":39,"time_elapsed":1019007,"internal_node_id":"0.0-23.0-0.0"}]