[{"num":1,"trees":3,"strengths":[1,3,2],"player_choices":["fish","tree","fish"],"payoff":3,"max_payoff":3,"is_max":true,"trial_type":"fishing-game","trial_index":0,"time_elapsed":501616,"internal_node_id":"0.0-0.0-0.0"},{"num":2,"trees":1,"strengths":[3,3,2],"player_choices":["fish","fish","tree"],"payoff":6,"max_payoff":6,"is_max":true,"trial_type":"fishing-game","trial_index":1,"time_elapsed":530825,"internal_node_id":"0.0-1.0-0.0"},{"num":3,"trees":1,"strengths":[1,1,1],"player_choices":["fish","tree","fish"],"payoff":2,"max_payoff":2,"is_max":true,"trial_type":"fishing-game","trial_index":2,"time_elapsed":559810,"internal_node_id":"0.0-2.0-0.0"},{"num":4,"trees":2,"strengths":[1,1,1],"player_choices":["fish","tree","tree"],"payoff":1,"max_payoff":1,"is_max":true,"trial_type":"fishing-game","trial_index":3,"time_elapsed":590900,"internal_node_id":"0.0-3.0-0.0"},{"num":5,"trees":1,"strengths":[2,1,3],"player_choices":["fish","tree","fish"],"payoff":5,"max_payoff":5,"is_max":true,"trial_type":"fishing-game","trial_index":4,"time_elapsed":615526,"internal_node_id":"0.0-4.0-0.0"},{"num":6,"trees":3,"strengths":[2,1,3],"player_choices":["fish","fish","tree"],"payoff":3,"max_payoff":3,"is_max":true,"trial_type":"fishing-game","trial_index":5,"time_elapsed":638191,"internal_node_id":"0.0-5.0-0.0"},{"num":7,"trees":2,"strengths":[3,2,3],"player_choices":["fish","tree","fish"],"payoff":6,"max_payoff":6,"is_max":true,"trial_type":"fishing-game","trial_index":6,"time_elapsed":657763,"internal_node_id":"0.0-6.0-0.0"},{"num":8,"trees":1,"strengths":[3,2,2],"player_choices":["fish","tree","fish"],"payoff":5,"max_payoff":5,"is_max":true,"trial_type":"fishing-game","trial_index":7,"time_elapsed":675218,"internal_node_id":"0.0-7.0-0.0"},{"num":9,"trees":1,"strengths":[3,3,3],"player_choices":["fish","tree","fish"],"payoff":6,"max_payoff":6,"is_max":true,"trial_type":"fishing-game","trial_index":8,"time_elapsed":704026,"internal_node_id":"0.0-8.0-0.0"},{"num":10,"trees":3,"strengths":[2,1,1],"player_choices":["tree","tree","fish"],"payoff":1,"max_payoff":1,"is_max":true,"trial_type":"fishing-game","trial_index":9,"time_elapsed":727258,"internal_node_id":"0.0-9.0-0.0"},{"num":11,"trees":1,"strengths":[3,3,1],"player_choices":["fish","fish","fish"],"payoff":0,"max_payoff":6,"is_max":false,"trial_type":"fishing-game","trial_index":10,"time_elapsed":748888,"internal_node_id":"0.0-10.0-0.0"},{"num":11,"trees":1,"strengths":[3,3,1],"player_choices":["fish","fish","tree"],"payoff":6,"max_payoff":6,"is_max":true,"trial_type":"fishing-game","trial_index":10,"time_elapsed":748889,"internal_node_id":"0.0-10.0-0.0"},{"num":13,"trees":2,"strengths":[2,3,2],"player_choices":["fish","fish","tree"],"payoff":5,"max_payoff":5,"is_max":true,"trial_type":"fishing-game","trial_index":12,"time_elapsed":769265,"internal_node_id":"0.0-12.0-0.0"},{"num":14,"trees":3,"strengths":[3,3,3],"player_choices":["fish","tree","fish"],"payoff":6,"max_payoff":6,"is_max":true,"trial_type":"fishing-game","trial_index":13,"time_elapsed":788912,"internal_node_id":"0.0-13.0-0.0"},{"num":15,"trees":3,"strengths":[2,2,3],"player_choices":["fish","fish","tree"],"payoff":4,"max_payoff":4,"is_max":true,"trial_type":"fishing-game","trial_index":14,"time_elapsed":805344,"internal_node_id":"0.0-14.0-0.0"},{"num":16,"trees":2,"strengths":[1,2,2],"player_choices":["fish","tree","fish"],"payoff":3,"max_payoff":3,"is_max":true,"trial_type":"fishing-game","trial_index":15,"time_elapsed":823597,"internal_node_id":"0.0-15.0-0.0"},{"num":17,"trees":1,"strengths":[1,2,2],"player_choices":["tree","fish","fish"],"payoff":4,"max_payoff":4,"is_max":true,"trial_type":"fishing-game","trial_index":16,"time_elapsed":842592,"internal_node_id":"0.0-16.0-0.0"},{"num":18,"trees":3,"strengths":[2,2,2],"player_choices":["fish","tree","tree"],"payoff":2,"max_payoff":2,"is_max":true,"trial_type":"fishing-game","trial_index":17,"time_elapsed":863754,"internal_node_id":"0.0-17.0-0.0"},{"num":19,"trees":1,"strengths":[2,1,2],"player_choices":["fish","tree","fish"],"payoff":4,"max_payoff":4,"is_max":true,"trial_type":"fishing-game","trial_index":18,"time_elapsed":880347,"internal_node_id":"0.0-18.0-0.0"},{"num":20,"trees":2,"strengths":[2,2,2],"player_choices":["fish","tree","fish"],"payoff":4,"max_payoff":4,"is_max":true,"trial_type":"fishing-game","trial_index":19,"time_elapsed":897318,"internal_node_id":"0.0-19.0-0.0"},{"num":21,"trees":3,"strengths":[2,2,1],"player_choices":["fish","tree","tree"],"payoff":2,"max_payoff":2,"is_max":true,"trial_type":"fishing-game","trial_index":20,"time_elapsed":914190,"internal_node_id":"0.0-20.0-0.0"},{"num":22,"trees":2,"strengths":[2,2,3],"player_choices":["fish","tree","fish"],"payoff":5,"max_payoff":5,"is_max":true,"trial_type":"fishing-game","trial_index":21,"time_elapsed":933218,"internal_node_id":"0.0-21.0-0.0"},{"num":23,"trees":2,"strengths":[3,3,3],"player_choices":["fish","tree","fish"],"payoff":6,"max_payoff":6,"is_max":true,"trial_type":"fishing-game","trial_index":22,"time_elapsed":950357,"internal_node_id":"0.0-22.0-0.0"},{"num":24,"trees":3,"strengths":[3,1,1],"player_choices":["tree","fish","fish"],"payoff":2,"max_payoff":2,"is_max":true,"trial_type":"fishing-game","trial_index":23,"time_elapsed":973055,"internal_node_id":"0.0-23.0-0.0"}]