[{"num":1,"trees":3,"strengths":[1,3,2],"player_choices":["tree","tree","tree"],"payoff":0,"max_payoff":3,"is_max":false,"trial_type":"fishing-game","trial_index":0,"time_elapsed":305119,"internal_node_id":"0.0-0.0-0.0"},{"num":1,"trees":3,"strengths":[1,3,2],"player_choices":["tree","tree","tree"],"payoff":0,"max_payoff":3,"is_max":false,"trial_type":"fishing-game","trial_index":1,"time_elapsed":335309,"internal_node_id":"0.0-0.1-0.1"},{"num":1,"trees":3,"strengths":[1,3,2],"player_choices":["fish","tree","fish"],"payoff":3,"max_payoff":3,"is_max":true,"trial_type":"fishing-game","trial_index":2,"time_elapsed":367619,"internal_node_id":"0.0-0.2-0.2"},{"num":2,"trees":2,"strengths":[1,3,2],"player_choices":["fish","fish","tree"],"payoff":4,"max_payoff":4,"is_max":true,"trial_type":"fishing-game","trial_index":3,"time_elapsed":411954,"internal_node_id":"0.0-1.0-0.0"},{"num":3,"trees":1,"strengths":[2,2,2],"player_choices":["fish","fish","fish"],"payoff":0,"max_payoff":4,"is_max":false,"trial_type":"fishing-game","trial_index":4,"time_elapsed":446390,"internal_node_id":"0.0-2.0-0.0"},{"num":3,"trees":1,"strengths":[2,2,2],"player_choices":["fish","fish","fish"],"payoff":0,"max_payoff":4,"is_max":false,"trial_type":"fishing-game","trial_index":5,"time_elapsed":467220,"internal_node_id":"0.0-2.1-0.1"},{"num":3,"trees":1,"strengths":[2,2,2],"player_choices":["tree","tree","fish"],"payoff":2,"max_payoff":4,"is_max":false,"trial_type":"fishing-game","trial_index":6,"time_elapsed":497511,"internal_node_id":"0.0-2.2-0.2"},{"num":3,"trees":1,"strengths":[2,2,2],"player_choices":["tree","tree","tree"],"payoff":0,"max_payoff":4,"is_max":false,"trial_type":"fishing-game","trial_index":6,"time_elapsed":497511,"internal_node_id":"0.0-2.2-0.2"},{"num":3,"trees":1,"strengths":[2,2,2],"player_choices":["tree","fish","fish"],"payoff":4,"max_payoff":4,"is_max":true,"trial_type":"fishing-game","trial_index":8,"time_elapsed":520900,"internal_node_id":"0.0-2.4-0.4"},{"num":4,"trees":1,"strengths":[3,2,1],"player_choices":["fish","fish","tree"],"payoff":5,"max_payoff":5,"is_max":true,"trial_type":"fishing-game","trial_index":9,"time_elapsed":542346,"internal_node_id":"0.0-3.0-0.0"},{"num":5,"trees":3,"strengths":[2,2,2],"player_choices":["fish","fish","fish"],"payoff":0,"max_payoff":2,"is_max":false,"trial_type":"fishing-game","trial_index":10,"time_elapsed":567348,"internal_node_id":"0.0-4.0-0.0"},{"num":5,"trees":3,"strengths":[2,2,2],"player_choices":["tree","tree","fish"],"payoff":2,"max_payoff":2,"is_max":true,"trial_type":"fishing-game","trial_index":11,"time_elapsed":601684,"internal_node_id":"0.0-4.1-0.1"},{"num":6,"trees":1,"strengths":[2,1,1],"player_choices":["fish","fish","fish"],"payoff":0,"max_payoff":3,"is_max":false,"trial_type":"fishing-game","trial_index":12,"time_elapsed":627160,"internal_node_id":"0.0-5.0-0.0"},{"num":6,"trees":1,"strengths":[2,1,1],"player_choices":["fish","fish","tree"],"payoff":3,"max_payoff":3,"is_max":true,"trial_type":"fishing-game","trial_index":13,"time_elapsed":643151,"internal_node_id":"0.0-5.1-0.1"},{"num":7,"trees":3,"strengths":[3,3,3],"player_choices":["fish","fish","tree"],"payoff":6,"max_payoff":6,"is_max":true,"trial_type":"fishing-game","trial_index":14,"time_elapsed":666645,"internal_node_id":"0.0-6.0-0.0"},{"num":8,"trees":3,"strengths":[2,2,3],"player_choices":["fish","fish","tree"],"payoff":4,"max_payoff":4,"is_max":true,"trial_type":"fishing-game","trial_index":15,"time_elapsed":687099,"internal_node_id":"0.0-7.0-0.0"},{"num":9,"trees":2,"strengths":[2,2,1],"player_choices":["fish","fish","fish"],"payoff":0,"max_payoff":3,"is_max":false,"trial_type":"fishing-game","trial_index":16,"time_elapsed":707649,"internal_node_id":"0.0-8.0-0.0"},{"num":9,"trees":2,"strengths":[2,2,1],"player_choices":["fish","fish","fish"],"payoff":0,"max_payoff":3,"is_max":false,"trial_type":"fishing-game","trial_index":17,"time_elapsed":728717,"internal_node_id":"0.0-8.1-0.1"},{"num":9,"trees":2,"strengths":[2,2,1],"player_choices":["tree","fish","fish"],"payoff":3,"max_payoff":3,"is_max":true,"trial_type":"fishing-game","trial_index":18,"time_elapsed":748280,"internal_node_id":"0.0-8.2-0.2"},{"num":10,"trees":2,"strengths":[2,2,2],"player_choices":["fish","fish","tree"],"payoff":4,"max_payoff":4,"is_max":true,"trial_type":"fishing-game","trial_index":19,"time_elapsed":770797,"internal_node_id":"0.0-9.0-0.0"},{"num":11,"trees":1,"strengths":[3,1,1],"player_choices":["fish","fish","tree"],"payoff":4,"max_payoff":4,"is_max":true,"trial_type":"fishing-game","trial_index":20,"time_elapsed":792494,"internal_node_id":"0.0-10.0-0.0"},{"num":12,"trees":1,"strengths":[3,3,2],"player_choices":["fish","fish","tree"],"payoff":6,"max_payoff":6,"is_max":true,"trial_type":"fishing-game","trial_index":21,"time_elapsed":813510,"internal_node_id":"0.0-11.0-0.0"},{"num":13,"trees":2,"strengths":[3,3,3],"player_choices":["fish","fish","tree"],"payoff":6,"max_payoff":6,"is_max":true,"trial_type":"fishing-game","trial_index":22,"time_elapsed":830468,"internal_node_id":"0.0-12.0-0.0"},{"num":14,"trees":1,"strengths":[2,3,1],"player_choices":["fish","fish","tree"],"payoff":5,"max_payoff":5,"is_max":true,"trial_type":"fishing-game","trial_index":23,"time_elapsed":847132,"internal_node_id":"0.0-13.0-0.0"},{"num":15,"trees":1,"strengths":[2,2,3],"player_choices":["tree","tree","fish"],"payoff":3,"max_payoff":5,"is_max":false,"trial_type":"fishing-game","trial_index":24,"time_elapsed":871927,"internal_node_id":"0.0-14.0-0.0"},{"num":15,"trees":1,"strengths":[2,2,3],"player_choices":["tree","fish","fish"],"payoff":5,"max_payoff":5,"is_max":true,"trial_type":"fishing-game","trial_index":25,"time_elapsed":888213,"internal_node_id":"0.0-14.1-0.1"},{"num":16,"trees":3,"strengths":[1,2,3],"player_choices":["fish","fish","tree"],"payoff":3,"max_payoff":3,"is_max":true,"trial_type":"fishing-game","trial_index":26,"time_elapsed":908913,"internal_node_id":"0.0-15.0-0.0"},{"num":17,"trees":1,"strengths":[3,3,3],"player_choices":["fish","fish","tree"],"payoff":6,"max_payoff":6,"is_max":true,"trial_type":"fishing-game","trial_index":27,"time_elapsed":924552,"internal_node_id":"0.0-16.0-0.0"},{"num":18,"trees":1,"strengths":[3,1,3],"player_choices":["fish","tree","fish"],"payoff":6,"max_payoff":6,"is_max":true,"trial_type":"fishing-game","trial_index":28,"time_elapsed":947368,"internal_node_id":"0.0-17.0-0.0"},{"num":19,"trees":3,"strengths":[2,3,2],"player_choices":["fish","tree","fish"],"payoff":4,"max_payoff":4,"is_max":true,"trial_type":"fishing-game","trial_index":29,"time_elapsed":966336,"internal_node_id":"0.0-18.0-0.0"},{"num":20,"trees":2,"strengths":[1,1,1],"player_choices":["tree","fish","tree"],"payoff":1,"max_payoff":1,"is_max":true,"trial_type":"fishing-game","trial_index":30,"time_elapsed":988832,"internal_node_id":"0.0-19.0-0.0"},{"num":21,"trees":2,"strengths":[1,2,2],"player_choices":["fish","fish","tree"],"payoff":3,"max_payoff":3,"is_max":true,"trial_type":"fishing-game","trial_index":31,"time_elapsed":1008148,"internal_node_id":"0.0-20.0-0.0"},{"num":22,"trees":2,"strengths":[1,3,3],"player_choices":["fish","fish","tree"],"payoff":4,"max_payoff":4,"is_max":true,"trial_type":"fishing-game","trial_index":32,"time_elapsed":1029868,"internal_node_id":"0.0-21.0-0.0"},{"num":23,"trees":2,"strengths":[3,2,1],"player_choices":["fish","tree","fish"],"payoff":4,"max_payoff":4,"is_max":true,"trial_type":"fishing-game","trial_index":33,"time_elapsed":1048782,"internal_node_id":"0.0-22.0-0.0"},{"num":24,"trees":1,"strengths":[1,1,1],"player_choices":["fish","fish","tree"],"payoff":2,"max_payoff":2,"is_max":true,"trial_type":"fishing-game","trial_index":34,"time_elapsed":1065666,"internal_node_id":"0.0-23.0-0.0"}]